Folder: Fabry-Perot/calc_refractive

File: InGaN_FTIR.csv
,Absorbance Spectrum,Absorbance Spectrum,,Absorbance Spectrum,Absorbance Spectrum,Absorbance Spectrum,Absorbance Spectrum,Absorbance Spectrum,Absorbance Spectrum,Absorbance Spectrum,Absorbance Spectrum,Absorbance Spectrum,Absorbance Spectrum
Wavenumber cm-1,,,,,,,,,,,,,
,Lumilog_GaN_substrate 20degC,Lumilog_GaN_substrate_80degC,LUMILOG_GaN_substrate_-160degC,B120504_InGaN_20degC,B120504_InGaN_80degC,B120504_InGaN_20degC_Vak,B120504_InGaN_-160degC_Vak,J130828_10nm_M16_InGaN_20degC_Vak,J130828_10nm_M16_InGaN_-160degC_Vak,J130828_10nm_M16_InGaN_90degC,J140228_3nm_InGaN_20degC,J140228_3nm_InGaN_90degC,J140228_3nm_InGaN_-160degC
7999.37,0.547562,0.571888,1.29707,0.402964,0.432407,0.487249,0.596061,0.74008,0.736118,0.730045,0.893198,0.892431,0.976756
7909.2,0.472855,0.513991,1.28463,0.394467,0.371458,0.511051,0.556995,0.753289,0.762967,0.709004,0.891024,0.861357,0.968562
7819.03,0.440489,0.457662,1.26415,0.381104,0.418661,0.509477,0.553495,0.751128,0.778234,0.736523,0.901113,0.889198,0.972426
7728.87,0.437674,0.428865,1.32236,0.348882,0.358428,0.458504,0.524958,0.771131,0.791646,0.749134,0.89176,0.89565,0.982378
7638.7,0.482867,0.486011,1.38679,0.346382,0.357701,0.463249,0.521865,0.783204,0.799919,0.748972,0.903918,0.895796,0.96561
7548.53,0.504684,0.517512,1.37119,0.330411,0.35074,0.466828,0.522464,0.777788,0.807687,0.764598,0.911094,0.918796,1.00769
7458.36,0.472913,0.47479,1.36755,0.30883,0.328095,0.461174,0.509865,0.78665,0.826268,0.765575,0.925704,0.919042,0.994201
7368.2,0.438439,0.450626,1.39039,0.315154,0.336152,0.455087,0.507566,0.811719,0.842387,0.788859,0.9178406,0.91181,0.997636
7278.03,0.397242,0.404686,1.34866,0.268792,0.303071,0.425875,0.482644,0.816647,0.852917,0.802848,0.927666,0.919973,0.998306
7187.86,0.396892,0.402714,1.36843,0.261332,0.280181,0.402423,0.468123,0.822148,0.8548702,0.807069,0.933792,0.922221,1.02287
7097.69,0.426179,0.4240762,1.38018,0.25761,0.273821,0.402363,0.472239,0.826041,0.85616,0.807109,0.934806,0.927622,1.02735
7007.53,0.442028,0.454017,1.40422,0.24872,0.255922,0.401901,0.468094,0.848463,0.884256,0.824093,0.940381,0.930739,1.01932
6917.36,0.476298,0.482222,1.433,0.24526,0.252642,0.390447,0.469837,0.852825,0.881687,0.836553,0.938237,0.928088,1.02658
6827.19,0.45367,0.4531959,1.43105,0.229008,0.236661,0.379767,0.456161,0.848246,0.883861,0.836822,0.958923,0.947241,1.04689
6737.02,0.411093,0.422005,1.41728,0.232212,0.234373,0.381862,0.458533,0.855023,0.893446,0.831828,0.971327,0.962039,1.05211
6646.85,0.390082,0.39374,1.40474,0.259182,0.257468,0.413578,0.481976,0.873582,0.90674,0.851754,0.970882,0.964788,1.05175
6556.69,0.392834,0.400884,1.40871,0.256439,0.264173,0.412004,0.482094,0.884196,0.918158,0.868077,0.976621,0.963912,1.05962
6466.52,0.421358,0.428816,1.43243,0.237919,0.238821,0.394579,0.466522,0.886324,0.916522,0.867077,0.990513,0.981577,1.08202
6376.35,0.443269,0.448586,1.46468,0.229129,0.230012,0.383244,0.454767,0.892695,0.932201,0.874975,1.007,0.995308,1.09171
6286.18,0.432018,0.447645,1.48639,0.243291,0.241703,0.400673,0.464487,0.916794,0.951004,0.898967,1.00921,1.00113,1.08755
6196.02,0.405754,0.415488,1.4672,0.259277,0.26161,0.417716,0.483026,0.933041,0.959061,0.914252,1.00459,0.997154,1.0878
6105.85,0.368958,0.378483,1.46165,0.258174,0.264549,0.416306,0.480537,0.929831,0.960855,0.914234,1.01704,1.0061,1.09973
6015.68,0.360215,0.361841,1.4637,0.233063,0.23688,0.399304,0.46454,0.9315,0.966065,0.916738,1.02992,1.02096,1.11516
5925.51,0.379062,0.38335,1.48303,0.214709,0.216083,0.3824929,0.450485,0.948625,0.982462,0.933512,1.03504,1.02544,1.11613
5835.34,0.40822,0.409676,1.51664,0.22303,0.223058,0.39343,0.458311,0.96552,0.996531,0.949309,1.03682,1.02514,1.11667
5745.18,0.422976,0.431475,1.54127,0.2328,0.234929,0.405382,0.470608,0.964478,0.99735,0.951971,1.04603,1.03378,1.13164
5655.01,0.407279,0.416219,1.5392,0.223573,0.228237,0.397894,0.464899,0.957851,0.996372,0.946838,1.06422,1.05317,1.1481
5564.84,0.369515,0.376134,1.52069,0.197598,0.201654,0.377307,0.443232,0.968326,1.00643,0.95441,1.07028,1.05877,1.15165
5474.67,0.339138,0.349828,1.50897,0.200141,0.203097,0.377274,0.442862,0.996238,1.03041,0.982037,1.06965,1.05873,1.14632
5384.51,0.337827,0.342063,1.51471,0.207948,0.210677,0.394227,0.463762,0.993245,1.02702,0.979483,1.07913,1.06562,1.16091
5294.34,0.364237,0.367215,1.5353,0.218909,0.218268,0.402757,0.466382,0.980915,1.02043,0.971054,1.08994,1.07651,1.17276
5204.17,0.388728,0.39407,1.57008,0.205965,0.208008,0.395669,0.460122,0.995608,1.03293,0.982639,1.11255,1.09796,1.19109
5114,0.385801,0.393236,1.57856,0.18746,0.188502,0.38095,0.444368,1.01377,1.0488,1.00347,1.10021,1.08723,1.17973
5023.84,0.355748,0.362511,1.56682,0.192972,0.190773,0.389118,0.453544,1.01875,1.05411,1.0101,1.09376,1.07962,1.17551
4933.67,0.314936,0.324092,1.53937,0.216408,0.215428,0.412017,0.474708,1.01044,1.04821,1.00329,1.10219,1.08608,1.18393
4843.5,0.293681,0.297313,1.52451,0.222276,0.221842,0.420414,0.48176,1.01399,1.05292,1.00492,1.11657,1.10127,1.19734
4753.33,0.306084,0.307815,1.53848,0.205396,0.206481,0.406052,0.469169,1.03167,1.06914,1.02283,1.11686,1.10234,1.19601
4663.16,0.335152,0.338376,1.56735,0.181697,0.182161,0.387725,0.449882,1.03809,1.07574,1.03142,1.10997,1.09598,1.19021
4573,0.355335,0.359453,1.59588,0.182348,0.180498,0.390282,0.453576,1.02829,1.06807,1.02382,1.11715,1.10073,1.19727
4482.83,0.341435,0.348482,1.59455,0.199549,0.199019,0.407747,0.470705,1.02578,1.06699,1.01963,1.13374,1.11687,1.2128
4392.66,0.304595,0.311959,1.56867,0.204973,0.204509,0.414449,0.475949,1.04132,1.08044,1.03481,1.13964,1.1243,1.21713
4302.49,0.2657561,0.271153,1.54187,0.184312,0.185517,0.397278,0.458638,1.0507,1.08928,1.04598,1.1327,1.11741,1.20992
4212.33,0.2575,0.261367,1.53823,0.157437,0.15726,0.375888,0.436947,1.04337,1.08349,1.04025,1.13335,1.11553,1.20993
4122.16,0.279967,0.282602,1.5629,0.156001,0.154037,0.375838,0.437692,1.03887,1.08065,1.03446,1.15049,1.1327,1.22678
4031.99,0.30609,0.309968,1.59506,0.171951,0.169896,0.391479,0.452522,1.05403,1.09527,1.04818,1.16233,1.14554,1.2372
3941.82,0.310987,0.317545,1.60894,0.173493,0.175674,0.398633,0.456851,1.06835,1.10828,1.06313,1.15933,1.14359,1.23239
3851.66,0.283161,0.289696,1.5792,0.148966,0.154013,0.382018,0.447563,1.04997,1.0914,1.05224,1.14186,1.12344,1.21547
3761.49,0.240369,0.24796,1.56108,0.13891,0.14019,0.364918,0.425104,1.05219,1.09428,1.04795,1.15824,1.1413,1.23084
3671.32,0.209541,0.215616,1.53998,0.151541,0.15133,0.37577,0.436339,1.06163,1.10467,1.05866,1.17298,1.15602,1.24337
3581.15,0.214433,0.218659,1.55787,0.17137,0.170801,0.392354,0.454762,1.07386,1.12178,1.06693,1.16944,1.1532,1.24236
3490.98,0.241694,0.243496,1.6223,0.16366,0.162317,0.388165,0.452699,1.07609,1.13412,1.07565,1.15873,1.14214,1.23675
3400.82,0.260138,0.261866,1.73967,0.139134,0.138042,0.365761,0.434471,1.06933,1.16185,1.06965,1.16503,1.14652,1.24638
3310.65,0.253896,0.257516,1.81179,0.123301,0.121054,0.353486,0.423001,1.08059,1.19538,1.07959,1.18248,1.16395,1.26377
3220.48,0.216765,0.220632,2.04682,0.137263,0.134577,0.369634,0.439329,1.09601,1.25393,1.09556,1.18971,1.17165,1.26927
3130.31,0.171234,0.174708,1.87599,0.15449,0.15193,0.38842,0.456753,1.09373,1.22834,1.09454,1.18173,1.16405,1.25876
3040.15,0.15271,0.154443,1.55669,0.149598,0.147915,0.381293,0.446753,1.08236,1.14414,1.083,1.18135,1.16272,1.25462
2949.98,0.182749,0.183406,1.54254,0.123577,0.122511,0.322003,0.386483,1.09373,1.13871,1.0931,1.2023,1.18277,1.26907
2859.81,0.211471,0.21234,1.56126,0.103521,0.101399,0.315009,0.378642,1.10555,1.14681,1.1054,1.21734,1.19823,1.28256
2769.64,0.200215,0.20303,1.56567,0.111213,0.108346,0.351088,0.414723,1.09933,1.14532,1.10074,1.21305,1.19459,1.28133
2679.48,0.176844,0.180557,1.5546,0.125372,0.122993,0.36587,0.427827,1.09056,1.13756,1.09205,1.21498,1.19567,1.28198
2589.31,0.129988,0.13346,1.51752,0.115668,0.114042,0.356969,0.41801,1.09292,1.13615,1.09363,1.23087,1.2106,1.29648
2499.14,0.0910002,0.0940038,1.48181,0.090887,0.0892446,0.332965,0.393725,1.10421,1.1459,1.10509,1.24791,1.2281,1.31191
2408.97,0.0871386,0.088791,1.47573,0.085875,0.08364,0.327572,0.388489,1.10928,1.15328,1.11043,1.25619,1.23659,1.31837
2318.8,0.10552,0.143789,1.53281,0.200828,0.20911,0.366814,0.434014,1.11267,1.1634,1.03519,1.2782,1.27172,1.33992
2228.64,0.138221,0.140519,1.52666,0.119135,0.117081,0.358071,0.416014,1.1414,1.18698,1.14164,1.2859,1.26617,1.34541
2138.47,0.13382,0.137091,1.52187,0.104089,0.102967,0.341297,0.398758,1.15865,1.20491,1.15894,1.29996,1.2806,1.3576
2048.3,0.0991463,0.103107,1.48871,0.0829616,0.0815043,0.319977,0.37695,1.16601,1.2133,1.16658,1.30554,1.28631,1.36167
1958.13,0.0544043,0.0588238,1.44378,0.08894,0.0872012,0.322136,0.378744,1.17062,1.21698,1.17064,1.31189,1.29275,1.36683
1867.97,0.0391011,0.0444147,1.42022,0.108818,0.111863,0.342339,0.399459,1.18335,1.22845,1.18402,1.32812,1.30896,1.38242
1777.8,0.0767969,0.0841986,1.45271,0.119395,0.12175,0.342381,0.395623,1.21925,1.26377,1.21544,1.36917,1.34983,1.4209
1687.63,0.143959,0.156854,1.53752,0.125669,0.133706,0.325946,0.379498,1.24974,1.2949,1.23932,1.41604,1.39641,1.46576
1597.46,0.263697,0.277627,1.63642,0.169139,0.172669,0.354068,0.406466,1.25726,1.30158,1.25361,1.44107,1.42046,1.49314
1507.3,0.429896,0.456427,1.8117,0.251694,0.265834,0.46119,0.514589,1.24376,1.28718,1.23712,1.45992,1.44459,1.51541
1417.13,0.864211,0.925878,2.15062,0.357882,0.366319,0.527364,0.572853,1.26809,1.30841,1.25822,1.45964,1.44016,1.50541
1326.96,1.88072,1.96083,3.05659,0.385753,0.383565,0.572396,0.618794,1.26845,1.31123,1.26557,1.46101,1.43986,1.51064
1236.79,1.87157,2.0115,2.89526,0.385322,0.384166,0.562703,0.606376,1.27185,1.31367,1.27173,1.44894,1.42841,1.49745
1146.62,3.08638,2.92284,3.79016,0.392456,0.390249,0.507451,0.549318,1.27447,1.31406,1.272,1.44648,1.42706,1.49411
1056.46,4.99287,4.42747,3.87134,0.392229,0.393517,0.449062,0.491183,1.27721,1.31471,1.27252,1.44527,1.42588,1.49115
966.289,3.60166,3.91437,4.45756,0.401093,0.401687,0.566577,0.606016,1.27362,1.3111,1.26859,1.4427,1.42494,1.48848
876.121,3.52401,3.4661,4.05699,0.403259,0.404436,0.573201,0.608814,1.2852,1.31975,1.27774,1.43225,1.41659,1.47685
785.954,4.9999,4.94233,3.79606,0.41283,0.421806,0.530779,0.561841,1.29069,1.31847,1.28146,1.44922,1.43852,1.48769
695.786,4.95882,4.82153,5.0162,0.442883,0.470801,0.497822,0.516371,1.29282,1.30011,1.25957,1.47266,1.47974,1.50092
605.618,0.106401,0.167403,-0.869674,0.0110248,2.29821,5.13458,-0.313605,-0.025599,4.06658,1.54673,5.11507,4.33935,0.497181
515.451,3.65102,1.02208,1.57845,1.34257,3.06282,0.82145,0.923197,0.327543,1.59515,0.395752,5.14508,0.072922,5.18037
425.283,2.45861,0.768256,1.6501,3.35101,5.11011,1.56791,1.0352,1.81546,-0.119427,3.30764,1.92868,3.50058,1.65471
399.727,1.00071,1.96051,-0.395663,4.71346,0.21707,-0.223701,-0.151382,0.0504591,-0.117856,5.47487,-0.259232,0.029373,-0.688857